\n INPUT PARAMETERS:\n
 RADIATION SCHEME:            4  streams\n
 w-grid:         111   290.000000       400.000000    
 equally spaced z-grid
 z-grid:          81   2.50000004E-02   80.0000000    
  measurement point: index           1  altitude=   2.50000004E-02
 idate =     20230829  esfact(1) =    1.00000000    
 air temperature: USSA, 1976
 air concentrations: USSA, 1976
 ozone profile: USSA, 1976
 DATAE1/SUN/susim_hi.flx
 DATAE1/SUN/atlas3_1994_317_a.dat        
 DATAE1/SUN/neckel.flx                   
 DATAE1/SUN/sao2010.solref.converted     
 aerosols:  Elterman (1968) continental profile
 solar zenith angle =    0.00000000    
 \n SPECTRAL IRRADIANCE (W m-2 nm-1):\n
 LOWER WVL  UPPER WVL  DIRECT     DIFFUSE DOWN  DIFFUSE UP  TOTAL DOWNWELLING
 290.00     291.00     0.000E+00  0.000E+00     0.000E+00   0.000E+00
 291.00     292.00     1.250E-05  1.636E-05     8.660E-06   2.887E-05
 292.00     293.00     3.228E-05  4.330E-05     2.267E-05   7.557E-05
 293.00     294.00     9.931E-05  1.366E-04     7.077E-05   2.359E-04
 294.00     295.00     1.983E-04  2.782E-04     1.429E-04   4.765E-04
 295.00     296.00     5.240E-04  7.532E-04     3.832E-04   1.277E-03
 296.00     297.00     9.533E-04  1.400E-03     7.059E-04   2.353E-03
 297.00     298.00     1.895E-03  2.835E-03     1.419E-03   4.730E-03
 298.00     299.00     2.331E-03  3.544E-03     1.763E-03   5.875E-03
 299.00     300.00     5.355E-03  8.268E-03     4.087E-03   1.362E-02
 300.00     301.00     5.141E-03  8.025E-03     3.950E-03   1.317E-02
 301.00     302.00     1.046E-02  1.657E-02     8.108E-03   2.703E-02
 302.00     303.00     1.329E-02  2.117E-02     1.034E-02   3.446E-02
 303.00     304.00     2.314E-02  3.727E-02     1.812E-02   6.041E-02
 304.00     305.00     2.572E-02  4.147E-02     2.016E-02   6.720E-02
 305.00     306.00     3.463E-02  5.639E-02     2.730E-02   9.101E-02
 306.00     307.00     3.666E-02  5.948E-02     2.884E-02   9.613E-02
 307.00     308.00     5.375E-02  8.788E-02     4.249E-02   1.416E-01
 308.00     309.00     6.090E-02  9.902E-02     4.798E-02   1.599E-01
 309.00     310.00     5.439E-02  8.858E-02     4.289E-02   1.430E-01
 310.00     311.00     7.493E-02  1.218E-01     5.901E-02   1.967E-01
 311.00     312.00     9.745E-02  1.573E-01     7.644E-02   2.548E-01
 312.00     313.00     9.608E-02  1.554E-01     7.543E-02   2.514E-01
 313.00     314.00     1.100E-01  1.760E-01     8.580E-02   2.860E-01
 314.00     315.00     1.109E-01  1.775E-01     8.653E-02   2.884E-01
 315.00     316.00     1.156E-01  1.828E-01     8.952E-02   2.984E-01
 316.00     317.00     1.161E-01  1.831E-01     8.974E-02   2.991E-01
 317.00     318.00     1.656E-01  2.575E-01     1.269E-01   4.231E-01
 318.00     319.00     1.312E-01  2.035E-01     1.004E-01   3.346E-01
 319.00     320.00     1.614E-01  2.473E-01     1.226E-01   4.087E-01
 320.00     321.00     1.980E-01  2.998E-01     1.494E-01   4.978E-01
 321.00     322.00     1.690E-01  2.555E-01     1.274E-01   4.246E-01
 322.00     323.00     1.721E-01  2.539E-01     1.278E-01   4.260E-01
 323.00     324.00     1.780E-01  2.628E-01     1.322E-01   4.408E-01
 324.00     325.00     2.106E-01  3.066E-01     1.552E-01   5.172E-01
 325.00     326.00     2.382E-01  3.410E-01     1.738E-01   5.792E-01
 326.00     327.00     2.894E-01  4.130E-01     2.107E-01   7.024E-01
 327.00     328.00     2.720E-01  3.816E-01     1.961E-01   6.536E-01
 328.00     329.00     2.531E-01  3.501E-01     1.810E-01   6.032E-01
 329.00     330.00     3.293E-01  4.532E-01     2.347E-01   7.825E-01
 330.00     331.00     3.022E-01  4.088E-01     2.133E-01   7.110E-01
 331.00     332.00     3.009E-01  4.013E-01     2.107E-01   7.023E-01
 332.00     333.00     2.976E-01  3.940E-01     2.075E-01   6.916E-01
 333.00     334.00     2.820E-01  3.675E-01     1.949E-01   6.495E-01
 334.00     335.00     3.171E-01  4.084E-01     2.176E-01   7.254E-01
 335.00     336.00     3.231E-01  4.120E-01     2.205E-01   7.351E-01
 336.00     337.00     2.545E-01  3.200E-01     1.723E-01   5.744E-01
 337.00     338.00     2.815E-01  3.488E-01     1.891E-01   6.303E-01
 338.00     339.00     2.986E-01  3.664E-01     1.995E-01   6.650E-01
 339.00     340.00     3.266E-01  3.960E-01     2.168E-01   7.226E-01
 340.00     341.00     3.516E-01  4.206E-01     2.317E-01   7.722E-01
 341.00     342.00     3.140E-01  3.715E-01     2.057E-01   6.855E-01
 342.00     343.00     3.499E-01  4.091E-01     2.277E-01   7.591E-01
 343.00     344.00     3.658E-01  4.223E-01     2.364E-01   7.881E-01
 344.00     345.00     2.580E-01  2.942E-01     1.657E-01   5.522E-01
 345.00     346.00     3.553E-01  4.008E-01     2.268E-01   7.561E-01
 346.00     347.00     3.344E-01  3.726E-01     2.121E-01   7.071E-01
 347.00     348.00     3.286E-01  3.619E-01     2.072E-01   6.905E-01
 348.00     349.00     3.631E-01  3.954E-01     2.276E-01   7.585E-01
 349.00     350.00     3.060E-01  3.294E-01     1.906E-01   6.354E-01
 350.00     351.00     4.307E-01  4.585E-01     2.668E-01   8.892E-01
 351.00     352.00     3.732E-01  3.928E-01     2.298E-01   7.660E-01
 352.00     353.00     3.383E-01  3.522E-01     2.071E-01   6.905E-01
 353.00     354.00     4.093E-01  4.215E-01     2.492E-01   8.308E-01
 354.00     355.00     4.452E-01  4.535E-01     2.696E-01   8.987E-01
 355.00     356.00     4.181E-01  4.213E-01     2.518E-01   8.394E-01
 356.00     357.00     3.899E-01  3.887E-01     2.336E-01   7.786E-01
 357.00     358.00     3.332E-01  3.286E-01     1.985E-01   6.618E-01
 358.00     359.00     2.583E-01  2.521E-01     1.531E-01   5.104E-01
 359.00     360.00     4.368E-01  4.218E-01     2.576E-01   8.586E-01
 360.00     361.00     4.067E-01  3.887E-01     2.386E-01   7.955E-01
 361.00     362.00     3.684E-01  3.484E-01     2.150E-01   7.168E-01
 362.00     363.00     4.345E-01  4.068E-01     2.524E-01   8.414E-01
 363.00     364.00     3.882E-01  3.598E-01     2.244E-01   7.481E-01
 364.00     365.00     4.254E-01  3.903E-01     2.447E-01   8.157E-01
 365.00     366.00     5.206E-01  4.729E-01     2.980E-01   9.935E-01
 366.00     367.00     5.533E-01  4.977E-01     3.153E-01   1.051E+00
 367.00     368.00     5.275E-01  4.698E-01     2.992E-01   9.973E-01
 368.00     369.00     4.653E-01  4.104E-01     2.627E-01   8.757E-01
 369.00     370.00     5.604E-01  4.896E-01     3.150E-01   1.050E+00
 370.00     371.00     5.105E-01  4.417E-01     2.856E-01   9.522E-01
 371.00     372.00     5.864E-01  5.026E-01     3.267E-01   1.089E+00
 372.00     373.00     4.348E-01  3.692E-01     2.412E-01   8.040E-01
 373.00     374.00     3.945E-01  3.319E-01     2.179E-01   7.264E-01
 374.00     375.00     4.347E-01  3.623E-01     2.391E-01   7.969E-01
 375.00     376.00     4.923E-01  4.065E-01     2.696E-01   8.988E-01
 376.00     377.00     4.934E-01  4.037E-01     2.691E-01   8.971E-01
 377.00     378.00     5.897E-01  4.781E-01     3.203E-01   1.068E+00
 378.00     379.00     6.450E-01  5.183E-01     3.490E-01   1.163E+00
 379.00     380.00     4.789E-01  3.814E-01     2.581E-01   8.603E-01
 380.00     381.00     5.780E-01  4.563E-01     3.103E-01   1.034E+00
 381.00     382.00     5.450E-01  4.265E-01     2.914E-01   9.715E-01
 382.00     383.00     3.644E-01  2.827E-01     1.941E-01   6.470E-01
 383.00     384.00     3.211E-01  2.469E-01     1.704E-01   5.680E-01
 384.00     385.00     4.834E-01  3.686E-01     2.556E-01   8.520E-01
 385.00     386.00     4.799E-01  3.628E-01     2.528E-01   8.426E-01
 386.00     387.00     4.907E-01  3.679E-01     2.576E-01   8.586E-01
 387.00     388.00     4.575E-01  3.401E-01     2.393E-01   7.976E-01
 388.00     389.00     4.601E-01  3.391E-01     2.398E-01   7.992E-01
 389.00     390.00     5.820E-01  4.255E-01     3.022E-01   1.007E+00
 390.00     391.00     5.734E-01  4.158E-01     2.968E-01   9.892E-01
 391.00     392.00     6.824E-01  4.908E-01     3.519E-01   1.173E+00
 392.00     393.00     5.133E-01  3.662E-01     2.638E-01   8.794E-01
 393.00     394.00     2.238E-01  1.584E-01     1.147E-01   3.822E-01
 394.00     395.00     5.282E-01  3.708E-01     2.697E-01   8.990E-01
 395.00     396.00     6.816E-01  4.747E-01     3.469E-01   1.156E+00
 396.00     397.00     4.014E-01  2.774E-01     2.036E-01   6.788E-01
 397.00     398.00     4.645E-01  3.185E-01     2.349E-01   7.830E-01
 398.00     399.00     8.005E-01  5.446E-01     4.035E-01   1.345E+00
 399.00     400.00     8.350E-01  5.637E-01     4.196E-01   1.399E+00
 \nWEIGHTED IRRADIANCES (W m-2)
 (with normalized action spectra)\n
   1 UV-B, 280-315 nm                          2.140E+00
   2 UV-B*, 280-320 nm                         3.904E+00
   3 UV-A, 315-400 nm                          6.523E+01
   4 vis+, > 400 nm                            0.000E+00
   5 Gaussian, 305 nm, 10 nm FWHM              9.342E-02
   6 Gaussian, 320 nm, 10 nm FWHM              4.198E-01
   7 Gaussian, 340 nm, 10 nm FWHM              6.983E-01
   8 Gaussian, 380 nm, 10 nm FWHM              8.938E-01
   9 RB Meter, model 501                       6.314E-01
  10 Eppley UV Photometer                      5.721E+01
  11 PAR, 400-700 nm, umol m-2 s-1             0.000E+00
  12 Exponential decay, 14 nm/10               7.293E-01
  13 DNA damage, in vitro (Setlow, 1974)       7.313E-03
  14 SCUP-mice (de Gruijl et al., 1993)        4.229E-01
  15 SCUP-human (de Gruijl and van der Leun,   7.005E-01
  16 Standard human erythema (Webb et al., 20  3.009E-01
  17 UV index (WMO, 1994; Webb et al., 2011)   1.204E+01
  18 Erythema, humans (Anders et al., 1995)    1.378E-03
  19 Occupational TLV (ACGIH, 1992)            8.036E-02
  20 Phytoplankton (Boucher et al., 1994)      5.261E-03
  21 Phytoplankton, phaeo (Cullen et al., 199  1.863E-03
  22 Phytoplankton, proro (Cullen et al., 199  1.771E-03
  23 Cataract, pig (Oriowo et al., 2001)       9.242E-01
  24 Plant damage (Caldwell, 1971)             3.790E-01
  25 Plant damage,Flint&Caldwell,2003,orig.    1.217E+00
  26 Plant damage,Flint&Caldwell,2003,ext390   1.676E+00
  27 Previtamin-D3 (CIE 2006)                  6.004E-01
  28 NMSC (CIE 2006)                           6.675E-01
  29 Ebola virus inactivation                  2.372E+00