\n INPUT PARAMETERS:\n
 RADIATION SCHEME:            4  streams\n
 w-grid:         111   290.000000       400.000000    
 equally spaced z-grid
 z-grid:          81   2.50000004E-02   80.0000000    
  measurement point: index           1  altitude=   2.50000004E-02
 idate =     20231115  esfact(1) =    1.00000000    
 air temperature: USSA, 1976
 air concentrations: USSA, 1976
 ozone profile: USSA, 1976
 DATAE1/SUN/susim_hi.flx
 DATAE1/SUN/atlas3_1994_317_a.dat        
 DATAE1/SUN/neckel.flx                   
 DATAE1/SUN/sao2010.solref.converted     
 aerosols:  Elterman (1968) continental profile
 solar zenith angle =    15.1000004    
 \n SPECTRAL IRRADIANCE (W m-2 nm-1):\n
 LOWER WVL  UPPER WVL  DIRECT     DIFFUSE DOWN  DIFFUSE UP  TOTAL DOWNWELLING
 290.00     291.00     0.000E+00  0.000E+00     0.000E+00   0.000E+00
 291.00     292.00     8.202E-06  1.146E-05     5.897E-06   1.966E-05
 292.00     293.00     2.201E-05  3.147E-05     1.604E-05   5.348E-05
 293.00     294.00     7.022E-05  1.029E-04     5.192E-05   1.731E-04
 294.00     295.00     1.442E-04  2.154E-04     1.079E-04   3.597E-04
 295.00     296.00     3.930E-04  6.006E-04     2.981E-04   9.935E-04
 296.00     297.00     7.331E-04  1.144E-03     5.630E-04   1.877E-03
 297.00     298.00     1.490E-03  2.367E-03     1.157E-03   3.857E-03
 298.00     299.00     1.868E-03  3.012E-03     1.464E-03   4.880E-03
 299.00     300.00     4.367E-03  7.148E-03     3.455E-03   1.152E-02
 300.00     301.00     4.251E-03  7.030E-03     3.384E-03   1.128E-02
 301.00     302.00     8.779E-03  1.472E-02     7.049E-03   2.350E-02
 302.00     303.00     1.126E-02  1.898E-02     9.074E-03   3.025E-02
 303.00     304.00     1.984E-02  3.380E-02     1.609E-02   5.364E-02
 304.00     305.00     2.221E-02  3.785E-02     1.802E-02   6.005E-02
 305.00     306.00     3.019E-02  5.195E-02     2.464E-02   8.214E-02
 306.00     307.00     3.211E-02  5.503E-02     2.614E-02   8.713E-02
 307.00     308.00     4.746E-02  8.196E-02     3.883E-02   1.294E-01
 308.00     309.00     5.397E-02  9.264E-02     4.398E-02   1.466E-01
 309.00     310.00     4.847E-02  8.330E-02     3.953E-02   1.318E-01
 310.00     311.00     6.705E-02  1.150E-01     5.460E-02   1.820E-01
 311.00     312.00     8.746E-02  1.489E-01     7.091E-02   2.364E-01
 312.00     313.00     8.663E-02  1.477E-01     7.030E-02   2.343E-01
 313.00     314.00     9.936E-02  1.675E-01     8.006E-02   2.669E-01
 314.00     315.00     1.006E-01  1.696E-01     8.105E-02   2.702E-01
 315.00     316.00     1.050E-01  1.748E-01     8.392E-02   2.797E-01
 316.00     317.00     1.057E-01  1.756E-01     8.438E-02   2.813E-01
 317.00     318.00     1.509E-01  2.470E-01     1.194E-01   3.979E-01
 318.00     319.00     1.199E-01  1.957E-01     9.467E-02   3.156E-01
 319.00     320.00     1.476E-01  2.380E-01     1.157E-01   3.857E-01
 320.00     321.00     1.813E-01  2.888E-01     1.410E-01   4.701E-01
 321.00     322.00     1.552E-01  2.467E-01     1.206E-01   4.019E-01
 322.00     323.00     1.578E-01  2.447E-01     1.208E-01   4.025E-01
 323.00     324.00     1.637E-01  2.541E-01     1.254E-01   4.178E-01
 324.00     325.00     1.938E-01  2.964E-01     1.471E-01   4.902E-01
 325.00     326.00     2.192E-01  3.297E-01     1.647E-01   5.489E-01
 326.00     327.00     2.669E-01  4.001E-01     2.001E-01   6.670E-01
 327.00     328.00     2.508E-01  3.694E-01     1.861E-01   6.203E-01
 328.00     329.00     2.335E-01  3.391E-01     1.718E-01   5.726E-01
 329.00     330.00     3.043E-01  4.395E-01     2.232E-01   7.439E-01
 330.00     331.00     2.792E-01  3.963E-01     2.027E-01   6.756E-01
 331.00     332.00     2.782E-01  3.891E-01     2.002E-01   6.673E-01
 332.00     333.00     2.754E-01  3.824E-01     1.974E-01   6.579E-01
 333.00     334.00     2.610E-01  3.566E-01     1.853E-01   6.176E-01
 334.00     335.00     2.937E-01  3.964E-01     2.070E-01   6.901E-01
 335.00     336.00     2.995E-01  4.001E-01     2.099E-01   6.996E-01
 336.00     337.00     2.359E-01  3.108E-01     1.640E-01   5.467E-01
 337.00     338.00     2.610E-01  3.387E-01     1.799E-01   5.997E-01
 338.00     339.00     2.771E-01  3.560E-01     1.899E-01   6.331E-01
 339.00     340.00     3.032E-01  3.848E-01     2.064E-01   6.880E-01
 340.00     341.00     3.265E-01  4.088E-01     2.206E-01   7.353E-01
 341.00     342.00     2.917E-01  3.612E-01     1.959E-01   6.529E-01
 342.00     343.00     3.252E-01  3.978E-01     2.169E-01   7.231E-01
 343.00     344.00     3.401E-01  4.107E-01     2.252E-01   7.508E-01
 344.00     345.00     2.399E-01  2.861E-01     1.578E-01   5.260E-01
 345.00     346.00     3.305E-01  3.899E-01     2.161E-01   7.205E-01
 346.00     347.00     3.112E-01  3.625E-01     2.021E-01   6.737E-01
 347.00     348.00     3.059E-01  3.521E-01     1.974E-01   6.580E-01
 348.00     349.00     3.381E-01  3.848E-01     2.169E-01   7.229E-01
 349.00     350.00     2.850E-01  3.206E-01     1.817E-01   6.056E-01
 350.00     351.00     4.013E-01  4.462E-01     2.543E-01   8.476E-01
 351.00     352.00     3.478E-01  3.823E-01     2.191E-01   7.302E-01
 352.00     353.00     3.154E-01  3.428E-01     1.975E-01   6.583E-01
 353.00     354.00     3.817E-01  4.103E-01     2.376E-01   7.921E-01
 354.00     355.00     4.153E-01  4.416E-01     2.571E-01   8.569E-01
 355.00     356.00     3.902E-01  4.103E-01     2.401E-01   8.005E-01
 356.00     357.00     3.640E-01  3.786E-01     2.228E-01   7.426E-01
 357.00     358.00     3.111E-01  3.201E-01     1.894E-01   6.312E-01
 358.00     359.00     2.413E-01  2.456E-01     1.461E-01   4.869E-01
 359.00     360.00     4.081E-01  4.110E-01     2.457E-01   8.190E-01
 360.00     361.00     3.801E-01  3.788E-01     2.277E-01   7.589E-01
 361.00     362.00     3.443E-01  3.395E-01     2.052E-01   6.839E-01
 362.00     363.00     4.063E-01  3.965E-01     2.408E-01   8.028E-01
 363.00     364.00     3.631E-01  3.507E-01     2.142E-01   7.138E-01
 364.00     365.00     3.979E-01  3.805E-01     2.335E-01   7.784E-01
 365.00     366.00     4.871E-01  4.610E-01     2.844E-01   9.481E-01
 366.00     367.00     5.178E-01  4.852E-01     3.009E-01   1.003E+00
 367.00     368.00     4.938E-01  4.581E-01     2.856E-01   9.519E-01
 368.00     369.00     4.357E-01  4.002E-01     2.508E-01   8.359E-01
 369.00     370.00     5.249E-01  4.774E-01     3.007E-01   1.002E+00
 370.00     371.00     4.782E-01  4.308E-01     2.727E-01   9.090E-01
 371.00     372.00     5.495E-01  4.902E-01     3.119E-01   1.040E+00
 372.00     373.00     4.076E-01  3.602E-01     2.303E-01   7.677E-01
 373.00     374.00     3.699E-01  3.238E-01     2.081E-01   6.937E-01
 374.00     375.00     4.076E-01  3.534E-01     2.283E-01   7.610E-01
 375.00     376.00     4.617E-01  3.966E-01     2.575E-01   8.583E-01
 376.00     377.00     4.629E-01  3.940E-01     2.570E-01   8.568E-01
 377.00     378.00     5.533E-01  4.666E-01     3.060E-01   1.020E+00
 378.00     379.00     6.054E-01  5.059E-01     3.334E-01   1.111E+00
 379.00     380.00     4.496E-01  3.723E-01     2.466E-01   8.218E-01
 380.00     381.00     5.427E-01  4.454E-01     2.964E-01   9.880E-01
 381.00     382.00     5.118E-01  4.163E-01     2.784E-01   9.281E-01
 382.00     383.00     3.423E-01  2.760E-01     1.855E-01   6.182E-01
 383.00     384.00     3.016E-01  2.411E-01     1.628E-01   5.427E-01
 384.00     385.00     4.543E-01  3.599E-01     2.442E-01   8.142E-01
 385.00     386.00     4.510E-01  3.542E-01     2.416E-01   8.052E-01
 386.00     387.00     4.613E-01  3.592E-01     2.462E-01   8.206E-01
 387.00     388.00     4.302E-01  3.322E-01     2.287E-01   7.623E-01
 388.00     389.00     4.326E-01  3.313E-01     2.292E-01   7.639E-01
 389.00     390.00     5.474E-01  4.156E-01     2.889E-01   9.630E-01
 390.00     391.00     5.395E-01  4.062E-01     2.837E-01   9.456E-01
 391.00     392.00     6.421E-01  4.794E-01     3.365E-01   1.122E+00
 392.00     393.00     4.830E-01  3.577E-01     2.522E-01   8.408E-01
 393.00     394.00     2.107E-01  1.548E-01     1.096E-01   3.654E-01
 394.00     395.00     4.973E-01  3.624E-01     2.579E-01   8.596E-01
 395.00     396.00     6.418E-01  4.639E-01     3.317E-01   1.106E+00
 396.00     397.00     3.780E-01  2.711E-01     1.947E-01   6.491E-01
 397.00     398.00     4.375E-01  3.113E-01     2.246E-01   7.488E-01
 398.00     399.00     7.541E-01  5.323E-01     3.859E-01   1.286E+00
 399.00     400.00     7.867E-01  5.510E-01     4.013E-01   1.338E+00
 \nWEIGHTED IRRADIANCES (W m-2)
 (with normalized action spectra)\n
   1 UV-B, 280-315 nm                          1.969E+00
   2 UV-B*, 280-320 nm                         3.629E+00
   3 UV-A, 315-400 nm                          6.219E+01
   4 vis+, > 400 nm                            0.000E+00
   5 Gaussian, 305 nm, 10 nm FWHM              8.523E-02
   6 Gaussian, 320 nm, 10 nm FWHM              3.964E-01
   7 Gaussian, 340 nm, 10 nm FWHM              6.648E-01
   8 Gaussian, 380 nm, 10 nm FWHM              8.539E-01
   9 RB Meter, model 501                       5.771E-01
  10 Eppley UV Photometer                      5.441E+01
  11 PAR, 400-700 nm, umol m-2 s-1             0.000E+00
  12 Exponential decay, 14 nm/10               6.682E-01
  13 DNA damage, in vitro (Setlow, 1974)       6.440E-03
  14 SCUP-mice (de Gruijl et al., 1993)        3.819E-01
  15 SCUP-human (de Gruijl and van der Leun,   6.397E-01
  16 Standard human erythema (Webb et al., 20  2.737E-01
  17 UV index (WMO, 1994; Webb et al., 2011)   1.095E+01
  18 Erythema, humans (Anders et al., 1995)    1.243E-03
  19 Occupational TLV (ACGIH, 1992)            7.213E-02
  20 Phytoplankton (Boucher et al., 1994)      4.850E-03
  21 Phytoplankton, phaeo (Cullen et al., 199  1.754E-03
  22 Phytoplankton, proro (Cullen et al., 199  1.658E-03
  23 Cataract, pig (Oriowo et al., 2001)       8.440E-01
  24 Plant damage (Caldwell, 1971)             3.388E-01
  25 Plant damage,Flint&Caldwell,2003,orig.    1.139E+00
  26 Plant damage,Flint&Caldwell,2003,ext390   1.577E+00
  27 Previtamin-D3 (CIE 2006)                  5.436E-01
  28 NMSC (CIE 2006)                           6.084E-01
  29 Ebola virus inactivation                  2.101E+00
